Voltage (V)	dt is 0.010000 seconds	distance is 0.000000 cm
4.941791E+0
4.940310E+0
4.943271E+0
4.941297E+0
4.941955E+0
4.943765E+0
4.945739E+0
4.934882E+0
4.944916E+0
4.938501E+0
4.941133E+0
4.941133E+0
4.941133E+0
4.935211E+0
4.948371E+0
4.939817E+0
4.936527E+0
4.947055E+0
4.939323E+0
4.942778E+0
4.942449E+0
4.941955E+0
4.935211E+0
4.951167E+0
4.936033E+0
4.940310E+0
4.942449E+0
4.938830E+0
4.942284E+0
4.940475E+0
4.939817E+0
4.938665E+0
4.950838E+0
4.934059E+0
4.945739E+0
4.941297E+0
4.941462E+0
4.943107E+0
4.940968E+0
4.942284E+0
4.941791E+0
4.948371E+0
4.932907E+0
4.944423E+0
4.938172E+0
4.941297E+0
4.941626E+0
4.940639E+0
4.938007E+0
4.945903E+0
4.945081E+0
4.935375E+0
4.946232E+0
4.939323E+0
4.941955E+0
4.940804E+0
4.941133E+0
4.935869E+0
4.948535E+0
4.939981E+0
4.937185E+0
4.944916E+0
4.940639E+0
4.942449E+0
4.942449E+0
4.880101E+0
4.868751E+0
4.887175E+0
4.869409E+0
4.875002E+0
4.876647E+0
4.874508E+0
4.876811E+0
4.876318E+0
4.876811E+0
4.872205E+0
4.887340E+0
4.869409E+0
4.878621E+0
4.875660E+0
4.876153E+0
4.877963E+0
4.875660E+0
4.877305E+0
4.876976E+0
4.885037E+0
4.868257E+0
4.882240E+0
4.876647E+0
4.876647E+0
4.879772E+0
4.876976E+0
4.873686E+0
4.882075E+0
4.880595E+0
4.870396E+0
4.880595E+0
4.875660E+0
4.876811E+0
4.876153E+0
4.877634E+0
4.870889E+0
4.886188E+0
4.876153E+0
4.874179E+0
4.882404E+0
4.875989E+0
4.879279E+0
4.877634E+0
4.878127E+0
4.930275E+0
4.952319E+0
4.934059E+0
4.939159E+0
4.942284E+0
4.939652E+0
4.942120E+0
4.940310E+0
4.941133E+0
4.939323E+0
4.951003E+0
4.934882E+0
4.944752E+0
4.942120E+0
4.940310E+0
4.942449E+0
4.941297E+0
4.941297E+0
4.941297E+0
4.948700E+0
4.931756E+0
4.944752E+0
4.938830E+0
4.940639E+0
4.940968E+0
4.941133E+0
4.937843E+0
4.945574E+0
4.944258E+0
4.936691E+0
4.946561E+0
4.938830E+0
4.942284E+0
4.941626E+0
4.939652E+0
4.936527E+0
4.949851E+0
4.936527E+0
4.938172E+0
4.943765E+0
4.939652E+0
4.941626E+0
4.940968E+0
4.941955E+0
4.933401E+0
4.952319E+0
4.934223E+0
4.943271E+0
4.942120E+0
4.939652E+0
4.942120E+0
4.939981E+0
4.941626E+0
4.938994E+0
4.950016E+0
4.932578E+0
4.944423E+0
4.940475E+0
4.941133E+0
4.942120E+0
4.941133E+0
4.941955E+0
4.943765E+0
4.946397E+0
4.934388E+0
4.944916E+0
4.938665E+0
4.942284E+0
4.940639E+0
4.939488E+0
4.937020E+0
4.948371E+0
4.939817E+0
4.938007E+0
4.944916E+0
4.939652E+0
4.941955E+0
4.941626E+0
4.942120E+0
4.933565E+0
4.951990E+0
4.935211E+0
4.938665E+0
4.942449E+0
4.938172E+0
4.942284E+0
4.939817E+0
4.942120E+0
4.936691E+0
4.951332E+0
4.934552E+0
4.943271E+0
4.943436E+0
4.940146E+0
4.942449E+0
4.942120E+0
4.941626E+0
4.941297E+0
4.949193E+0
4.931591E+0
4.944587E+0
4.938830E+0
4.941955E+0
4.941297E+0
4.940310E+0
4.940146E+0
4.944916E+0
4.944258E+0
4.936033E+0
4.946726E+0
4.939652E+0
4.941955E+0
4.941297E+0
4.940804E+0
4.936362E+0
4.947877E+0
4.940146E+0
4.937678E+0
4.944423E+0
4.940310E+0
4.942942E+0
4.941462E+0
4.941955E+0
4.935375E+0
4.950180E+0
4.936362E+0
4.939159E+0
4.943765E+0
4.938172E+0
4.942778E+0
4.942120E+0
4.940804E+0
4.934388E+0
4.951167E+0
4.935869E+0
4.938994E+0
4.942613E+0
4.938994E+0
4.941462E+0
4.941133E+0
4.940475E+0
4.934388E+0
4.951990E+0
4.934223E+0
4.942449E+0
4.942120E+0
4.938665E+0
4.942284E+0
4.939488E+0
4.940639E+0
4.934388E+0
4.951497E+0
4.935046E+0
4.942120E+0
4.942449E+0
4.940639E+0
4.941133E+0
4.940310E+0
4.940968E+0
4.936527E+0
4.951003E+0
4.935046E+0
4.943107E+0
4.942613E+0
4.940639E+0
4.941955E+0
4.940968E+0
4.940639E+0
4.938665E+0
4.950180E+0
4.934059E+0
4.944587E+0
4.941955E+0
4.941133E+0
4.941297E+0
4.941133E+0
4.942284E+0
4.937678E+0
4.950674E+0
4.931920E+0
4.943929E+0
4.940968E+0
4.940804E+0
4.941626E+0
4.940475E+0
4.941791E+0
4.939817E+0
4.947548E+0
4.931591E+0
4.944094E+0
4.937843E+0
4.941462E+0
4.940639E+0
4.940639E+0
4.940804E+0
4.941133E+0
4.947548E+0
4.931591E+0
4.944094E+0
4.937843E+0
4.939817E+0
4.941297E+0
4.938994E+0
4.941462E+0
4.942778E+0
4.945410E+0
4.933401E+0
4.944423E+0
4.938007E+0
4.939323E+0
4.932085E+0
4.876482E+0
4.872699E+0
4.880101E+0
4.878785E+0
4.867599E+0
4.879443E+0
4.873357E+0
4.874508E+0
4.875495E+0
4.876811E+0
4.871547E+0
4.881253E+0
4.879937E+0
4.868751E+0
4.879772E+0
4.873357E+0
4.877305E+0
4.875495E+0
4.875495E+0
4.872205E+0
4.881746E+0
4.879114E+0
4.870725E+0
4.880924E+0
4.874344E+0
4.877469E+0
4.875002E+0
4.876318E+0
4.870889E+0
4.884379E+0
4.876647E+0
4.873521E+0
4.880430E+0
4.875331E+0
4.878456E+0
4.876482E+0
4.876811E+0
4.870231E+0
4.885859E+0
4.873192E+0
4.873357E+0
4.880266E+0
4.874508E+0
4.878621E+0
4.889972E+0
4.938830E+0
4.933401E+0
4.950180E+0
4.935211E+0
4.936691E+0
4.943107E+0
4.938172E+0
4.940804E+0
4.939817E+0
4.941133E+0
4.933072E+0
4.950345E+0
4.934388E+0
4.939159E+0
4.941462E+0
4.937843E+0
4.941626E+0
4.939159E+0
4.940475E+0
4.933730E+0
4.950345E+0
4.934059E+0
4.942613E+0
4.941133E+0
4.938994E+0
4.942120E+0
4.938172E+0
4.941791E+0
4.934223E+0
4.950509E+0
4.935375E+0
4.943600E+0
4.941955E+0
4.939488E+0
4.943271E+0
4.938336E+0
4.941297E+0
4.938994E+0
4.949029E+0
4.933565E+0
4.944423E+0
4.942120E+0
4.939981E+0
4.941955E+0
4.941791E+0
4.939981E+0
4.940639E+0
4.948864E+0
4.930769E+0
4.945081E+0
4.939488E+0
4.940968E+0
4.941297E+0
4.941133E+0
4.941791E+0
4.939981E+0
4.949193E+0
4.930111E+0
4.944258E+0
4.938665E+0
4.939652E+0
4.941626E+0
4.939488E+0
4.941626E+0
4.942284E+0
4.946068E+0
4.933894E+0
4.943436E+0
4.937678E+0
4.941297E+0
4.938994E+0
4.939817E+0
4.940804E+0
4.942942E+0
4.945574E+0
4.934717E+0
4.944587E+0
4.938501E+0
4.941133E+0
4.939981E+0
4.938994E+0
4.938830E+0
4.944587E+0
4.943765E+0
4.935211E+0
4.945245E+0
4.940475E+0
4.940968E+0
4.940146E+0
4.941955E+0
4.935046E+0
4.947055E+0
4.940804E+0
4.936362E+0
4.946232E+0
4.937514E+0
4.943765E+0
4.940639E+0
4.940639E+0
4.935375E+0
4.948535E+0
4.937678E+0
4.936033E+0
4.944423E+0
4.938830E+0
4.941791E+0
4.941133E+0
4.940968E+0
4.933894E+0
4.949522E+0
4.936527E+0
4.937020E+0
4.942613E+0
4.938665E+0
4.941297E+0
4.939981E+0
4.940804E+0
4.934882E+0
4.947548E+0
4.938172E+0
4.936527E+0
4.944094E+0
4.939323E+0
4.941462E+0
4.941626E+0
4.941133E+0
4.934059E+0
4.946890E+0
4.939981E+0
4.936691E+0
4.944587E+0
4.938007E+0
4.942778E+0
4.939981E+0
4.941133E+0
4.938172E+0
4.944094E+0
4.943271E+0
4.936691E+0
4.944916E+0
4.938501E+0
4.942449E+0
4.939981E+0
4.940475E+0
4.939323E+0
4.943107E+0
4.944258E+0
4.934717E+0
4.945245E+0
4.938830E+0
4.940310E+0
4.940968E+0
4.940804E+0
4.939488E+0
4.942449E+0
4.945903E+0
4.933401E+0
4.943436E+0
4.938172E+0
4.940146E+0
4.939817E+0
4.939817E+0
4.940146E+0
4.940639E+0
4.946890E+0
4.932085E+0
4.942778E+0
4.938665E+0
4.939817E+0
4.940639E+0
4.939488E+0
4.940475E+0
4.940639E+0
4.947055E+0
4.932249E+0
4.944094E+0
4.938007E+0
4.942284E+0
4.939652E+0
4.940968E+0
4.942613E+0
4.937678E+0
4.950016E+0
4.931756E+0
4.945081E+0
4.939652E+0
4.941133E+0
4.942449E+0
4.938994E+0
4.942120E+0
4.937349E+0
4.949687E+0
4.933236E+0
4.944258E+0
4.942120E+0
4.938830E+0
4.943271E+0
4.939652E+0
4.940475E+0
4.935375E+0
4.951003E+0
4.934388E+0
4.941297E+0
4.942613E+0
4.938830E+0
4.940639E+0
4.939981E+0
4.939981E+0
4.933072E+0
4.951003E+0
4.907409E+0
4.875824E+0
4.875166E+0
4.873028E+0
4.875989E+0
4.874015E+0
4.875495E+0
4.868422E+0
4.886682E+0
4.869080E+0
4.874837E+0
4.878456E+0
4.874015E+0
4.877963E+0
4.875660E+0
4.876153E+0
4.869573E+0
4.885859E+0
4.872863E+0
4.874344E+0
4.880101E+0
4.873357E+0
4.879279E+0
4.875495E+0
4.876153E+0
4.871054E+0
4.884214E+0
4.877305E+0
4.871218E+0
4.880924E+0
4.872699E+0
4.877140E+0
4.875660E+0
4.875660E+0
4.872041E+0
4.882075E+0
4.879279E+0
4.868093E+0
4.880595E+0
4.873192E+0
4.875495E+0
4.876976E+0
4.874179E+0
4.875495E+0
4.879279E+0
4.909548E+0
4.931262E+0
4.942613E+0
4.938007E+0
4.939981E+0
4.939652E+0
4.939652E+0
4.939652E+0
4.942120E+0
4.946397E+0
4.930604E+0
4.944423E+0
4.938501E+0
4.938665E+0
4.941297E+0
4.939488E+0
4.940475E+0
4.940804E+0
4.947219E+0
4.931262E+0
4.942449E+0
4.939488E+0
4.938830E+0
4.940146E+0
4.939817E+0
4.940475E+0
4.940475E+0
4.946890E+0
4.931756E+0
4.943107E+0
4.937678E+0
4.940475E+0
4.939981E+0
4.939817E+0
4.941626E+0
4.938501E+0
4.948042E+0
4.931591E+0
4.943271E+0
4.938665E+0
4.939817E+0
4.941955E+0
4.939159E+0
4.940804E+0
4.938336E+0
4.947713E+0
4.933072E+0
4.944587E+0
4.938994E+0
4.940968E+0
4.941462E+0
4.940146E+0
4.940310E+0
4.937349E+0
4.950345E+0
4.931591E+0
4.944916E+0
4.941133E+0
4.938994E+0
4.941955E+0
4.940146E+0
4.940310E+0
4.935375E+0
4.950509E+0
4.933401E+0
4.942613E+0
4.941297E+0
4.939323E+0
4.940968E+0
4.939981E+0
4.940146E+0
4.932907E+0
4.950180E+0
4.934552E+0
4.941462E+0
4.942120E+0
4.937843E+0
4.940804E+0
4.939981E+0
4.939488E+0
4.933401E+0
4.950016E+0
4.933565E+0
4.939817E+0
4.941133E+0
4.937020E+0
4.941462E+0
4.938336E+0
4.939817E+0
4.933730E+0
4.948864E+0
4.934223E+0
4.938007E+0
4.940475E+0
4.938172E+0
4.940310E+0
4.938994E+0
4.939488E+0
4.934552E+0
4.949522E+0
4.934059E+0
4.937514E+0
4.942120E+0
4.936198E+0
4.941297E+0
4.939817E+0
4.939817E+0
4.934717E+0
4.947219E+0
4.939159E+0
4.936691E+0
4.943929E+0
4.938665E+0
4.942120E+0
4.939159E+0
4.940639E+0
4.939652E+0
4.941626E+0
4.946232E+0
4.931098E+0
4.943107E+0
4.937514E+0
4.938830E+0
4.940475E+0
4.938665E+0
4.938665E+0
4.939488E+0
4.948535E+0
4.931920E+0
4.944916E+0
4.940146E+0
4.938830E+0
4.942449E+0
4.939817E+0
4.940310E+0
4.932578E+0
4.951003E+0
4.933236E+0
4.939652E+0
4.941955E+0
4.937185E+0
4.939817E+0
4.939488E+0
4.938665E+0
4.935046E+0
4.948042E+0
4.935375E+0
4.938336E+0
4.942613E+0
4.937514E+0
4.942613E+0
4.939817E+0
4.939323E+0
4.936691E+0
4.945410E+0
4.942613E+0
4.934882E+0
4.945245E+0
4.936691E+0
4.941626E+0
4.939981E+0
4.939323E+0
4.940310E+0
4.940146E+0
4.947219E+0
4.930440E+0
4.943107E+0
4.937678E+0
4.939488E+0
4.940639E+0
4.939159E+0
4.940804E+0
4.936362E+0
4.949358E+0
4.933565E+0
4.943107E+0
4.941133E+0
4.939488E+0
4.941297E+0
4.939981E+0
4.939981E+0
4.932907E+0
4.950674E+0
4.932743E+0
4.939652E+0
4.941462E+0
4.937349E+0
4.940310E+0
4.938830E+0
4.939981E+0
4.934223E+0
4.947384E+0
4.939652E+0
4.936362E+0
4.944587E+0
4.938830E+0
4.941626E+0
4.940310E+0
4.940146E+0
4.939323E+0
4.942120E+0
4.945081E+0
4.931920E+0
4.942778E+0
4.936856E+0
4.939817E+0
4.939652E+0
4.938830E+0
4.940146E+0
4.938172E+0
4.949687E+0
4.892933E+0
4.879279E+0
4.875660E+0
4.873850E+0
4.875989E+0
4.874837E+0
4.874673E+0
4.866941E+0
4.885530E+0
4.867599E+0
4.874015E+0
4.875989E+0
4.873357E+0
4.875495E+0
4.874179E+0
4.875495E+0
4.868586E+0
4.884214E+0
4.875002E+0
4.871547E+0
4.878950E+0
4.872699E+0
4.877305E+0
4.874508E+0
4.875495E+0
4.871383E+0
4.880430E+0
4.879608E+0
4.866941E+0
4.879443E+0
4.873686E+0
4.876153E+0
4.876153E+0
4.870889E+0
4.881582E+0
4.879279E+0
4.868093E+0
4.879279E+0
4.873521E+0
4.876153E+0
4.876482E+0
4.869409E+0
4.884214E+0
4.876976E+0
4.869409E+0
4.919254E+0
4.936033E+0
4.939981E+0
4.939159E+0
4.938665E+0
4.939817E+0
4.940804E+0
4.946068E+0
4.932414E+0
4.944916E+0
4.938830E+0
4.940639E+0
4.941462E+0
4.939323E+0
4.940804E+0
4.934059E+0
4.951003E+0
4.930933E+0
4.939652E+0
4.940475E+0
4.937349E+0
4.940804E+0
4.938007E+0
4.939981E+0
4.932578E+0
4.950509E+0
4.937349E+0
4.937514E+0
4.943929E+0
4.938172E+0
4.941791E+0
4.939159E+0
4.940310E+0
4.935869E+0
4.943765E+0
4.942613E+0
4.931756E+0
4.942613E+0
4.936691E+0
4.939323E+0
4.939159E+0
4.938665E+0
4.939323E+0
4.939323E+0
4.947713E+0
4.931262E+0
4.943765E+0
4.939488E+0
4.940146E+0
4.940310E+0
4.939817E+0
4.940310E+0
4.933894E+0
4.950180E+0
4.932414E+0
4.942120E+0
4.939488E+0
4.938501E+0
4.940475E+0
4.937020E+0
4.940310E+0
4.931756E+0
4.949029E+0
4.934059E+0
4.936856E+0
4.941955E+0
4.936527E+0
4.939981E+0
4.939652E+0
4.938665E+0
4.933894E+0
4.946561E+0
4.939159E+0
4.936362E+0
4.943929E+0
4.938665E+0
4.939817E+0
4.940310E+0
4.939652E+0
4.939323E+0
4.941462E+0
4.944752E+0
4.931756E+0
4.941462E+0
4.937843E+0
4.938501E+0
4.939652E+0
4.938172E+0
4.938665E+0
4.938994E+0
4.947384E+0
4.932249E+0
4.942449E+0
4.939323E+0
4.939981E+0
4.939981E+0
4.939817E+0
4.939488E+0
4.931262E+0
4.951003E+0
4.932743E+0
4.939981E+0
4.940639E+0
4.937678E+0
4.939817E+0
4.938007E+0
4.940146E+0
4.933894E+0
4.946068E+0
4.940804E+0
4.934059E+0
4.945245E+0
4.937020E+0
4.942120E+0
4.939488E+0
4.938501E+0
4.939981E+0
4.936856E+0
4.948371E+0
4.931427E+0
4.943600E+0
4.938665E+0
4.939981E+0
4.940804E+0
4.939159E+0
4.940804E+0
4.931427E+0
4.949358E+0
4.934552E+0
4.936198E+0
4.942284E+0
4.936856E+0
4.940310E+0
4.939817E+0
4.939323E+0
4.938994E+0
4.940639E+0
4.945081E+0
4.930275E+0
4.941462E+0
4.938172E+0
4.938172E+0
4.939817E+0
4.938830E+0
4.939652E+0
4.932249E+0
4.949358E+0
4.932249E+0
4.939323E+0
4.939159E+0
4.937185E+0
4.940146E+0
4.937843E+0
4.939323E+0
4.933894E+0
4.946068E+0
4.940310E+0
4.933236E+0
4.943107E+0
4.936527E+0
4.939817E+0
4.938172E+0
4.938501E+0
4.939159E+0
4.936362E+0
4.951003E+0
4.929782E+0
4.940804E+0
4.938994E+0
4.937843E+0
4.939652E+0
4.937678E+0
4.931756E+0
4.951167E+0
4.932085E+0
4.938830E+0
4.940310E+0
4.938336E+0
4.935211E+0
4.944094E+0
4.943765E+0
4.930604E+0
4.943436E+0
4.938501E+0
4.939652E+0
4.931591E+0
4.951332E+0
4.933730E+0
4.937678E+0
4.943436E+0
4.938007E+0
4.940310E+0
4.932743E+0
4.949193E+0
4.938665E+0
4.934717E+0
4.942942E+0
4.936856E+0
4.940475E+0
4.938501E+0
4.930440E+0
4.951661E+0
4.931262E+0
4.938501E+0
4.941462E+0
4.937349E+0
4.941133E+0
4.934223E+0
4.943929E+0
4.942942E+0
4.931427E+0
4.893920E+0
4.873028E+0
4.874344E+0
4.867270E+0
4.883556E+0
4.874179E+0
4.868586E+0
4.877798E+0
4.871712E+0
4.874837E+0
4.867435E+0
4.884214E+0
4.873521E+0
4.871054E+0
4.877798E+0
4.872699E+0
4.875989E+0
4.873357E+0
4.868751E+0
4.883885E+0
4.875002E+0
4.869409E+0
4.878950E+0
4.872041E+0
4.875660E+0
4.873850E+0
4.873686E+0
4.870560E+0
4.881746E+0
4.877469E+0
4.867928E+0
4.877469E+0
4.872534E+0
4.874837E+0
4.875002E+0
4.873850E+0
4.868257E+0
4.885530E+0
4.873028E+0
4.872699E+0
4.878950E+0
4.873357E+0
4.876647E+0
4.874508E+0
4.870067E+0
4.930604E+0
4.940310E+0
4.930604E+0
4.942778E+0
4.936033E+0
4.939488E+0
4.938665E+0
4.933565E+0
4.946890E+0
4.939981E+0
4.933401E+0
4.941297E+0
4.936856E+0
4.939323E+0
4.937843E+0
4.933730E+0
4.946561E+0
4.941955E+0
4.930275E+0
4.942942E+0
4.936856E+0
4.938172E+0
4.939488E+0
4.937678E+0
4.940804E+0
4.946561E+0
4.931262E+0
4.944916E+0
4.938501E+0
4.939817E+0
4.940639E+0
4.939488E+0
4.932743E+0
4.950838E+0
4.930769E+0
4.939159E+0
4.939817E+0
4.937185E+0
4.940475E+0
4.938007E+0
4.933401E+0
4.948371E+0
4.940310E+0
4.932414E+0
4.942613E+0
4.936362E+0
4.939817E+0
4.938007E+0
4.938336E+0
4.939652E+0
4.947548E+0
4.931427E+0
4.943436E+0
4.939817E+0
4.938665E+0
4.941297E+0
4.931427E+0
4.951497E+0
4.929946E+0
4.938336E+0
4.940639E+0
4.935869E+0
4.941133E+0
4.935540E+0
4.949522E+0
4.930933E+0
4.940968E+0
4.937843E+0
4.937678E+0
4.939817E+0
4.935375E+0
4.950345E+0
4.930604E+0
4.939817E+0
4.938501E+0
4.938172E+0
4.939159E+0
4.932743E+0
4.951497E+0
4.930111E+0
4.939159E+0
4.939488E+0
4.936856E+0
4.939981E+0
4.934717E+0
4.950838E+0
4.930275E+0
4.939652E+0
4.939323E+0
4.937349E+0
4.939652E+0
4.938172E+0
4.937185E+0
4.949687E+0
4.931262E+0
4.941462E+0
4.939159E+0
4.938994E+0
4.938336E+0
4.939159E+0
4.939488E+0
4.931756E+0
4.951661E+0
4.930440E+0
4.938336E+0
4.939652E+0
4.937349E+0
4.939652E+0
4.938172E+0
4.939488E+0
4.936362E+0
4.941955E+0
4.945081E+0
4.930111E+0
4.943600E+0
4.937678E+0
4.939323E+0
4.940146E+0
4.938665E+0
4.939817E+0
4.931591E+0
4.950674E+0
4.933730E+0
4.938501E+0
4.941955E+0
4.938336E+0
4.940475E+0
4.938994E+0
4.939981E+0
4.939159E+0
4.939652E+0
4.946726E+0
4.931920E+0
4.942778E+0
4.938665E+0
4.939652E+0
4.940310E+0
4.938665E+0
4.940146E+0
4.932085E+0
4.947877E+0
4.938007E+0
4.935540E+0
4.942120E+0
4.936362E+0
4.939817E+0
4.937843E+0
4.938007E+0
4.938336E+0
4.936033E+0
4.949029E+0
4.930604E+0
4.941462E+0
4.938665E+0
4.936691E+0
4.939817E+0
4.937514E+0
4.937678E+0
4.933730E+0
4.945081E+0
4.940310E+0
4.931427E+0
4.942613E+0
4.935704E+0
4.938665E+0
4.937843E+0
4.937514E+0
4.938336E+0
4.931756E+0
4.949687E+0
4.930604E+0
4.938007E+0
4.938007E+0
4.936198E+0
4.938830E+0
4.936691E+0
4.938172E+0
4.935540E+0
4.941462E+0
4.942942E+0
4.929946E+0
4.940475E+0
4.936198E+0
4.937678E+0
4.938007E+0
4.938501E+0
4.938336E+0
4.930769E+0
4.949029E+0
4.931591E+0
4.937185E+0
4.940804E+0
4.936691E+0
4.939817E+0
4.937678E+0
4.938665E+0
4.938172E+0
4.938336E+0
4.946232E+0
4.930769E+0
4.942778E+0
4.938172E+0
4.938336E+0
4.938830E+0
4.937843E+0
4.938830E+0
4.935869E+0
4.947877E+0
4.930440E+0
4.939981E+0
4.938501E+0
4.881911E+0
4.873357E+0
4.871712E+0
4.865625E+0
4.882898E+0
4.870725E+0
4.870231E+0
4.876811E+0
4.871054E+0
4.873850E+0
4.872863E+0
4.865625E+0
4.884049E+0
4.868586E+0
4.872370E+0
4.875495E+0
4.872863E+0
4.875331E+0
4.873850E+0
4.866283E+0
4.883885E+0
4.873028E+0
4.869244E+0
4.878621E+0
4.871547E+0
4.874673E+0
4.874179E+0
4.872699E+0
4.868093E+0
4.885037E+0
4.865296E+0
4.874015E+0
4.874673E+0
4.872041E+0
4.875002E+0
4.872863E+0
4.871547E+0
4.876647E+0
4.879279E+0
4.866447E+0
4.877798E+0
4.873521E+0
4.874673E+0
4.875002E+0
4.874344E+0
4.926985E+0
4.947384E+0
4.928795E+0
4.941955E+0
4.937678E+0
4.936856E+0
4.939159E+0
4.933401E+0
4.942613E+0
4.942449E+0
4.929946E+0
4.942942E+0
4.935869E+0
4.939652E+0
4.938830E+0
4.930604E+0
4.948864E+0
4.936691E+0
4.933894E+0
4.941297E+0
4.935540E+0
4.938336E+0
4.937185E+0
4.929782E+0
4.949851E+0
4.931920E+0
4.937678E+0
4.940475E+0
4.938172E+0
4.939488E+0
4.938007E+0
4.930933E+0
4.949029E+0
4.933894E+0
4.937185E+0
4.941955E+0
4.937349E+0
4.940146E+0
4.938830E+0
4.934552E+0
4.949193E+0
4.929288E+0
4.938830E+0
4.938007E+0
4.936033E+0
4.938994E+0
4.937185E+0
4.936691E+0
4.948206E+0
4.929946E+0
4.940804E+0
4.937678E+0
4.937514E+0
4.938665E+0
4.936691E+0
4.939323E+0
4.946232E+0
4.930440E+0
4.942778E+0
4.938336E+0
4.938501E+0
4.939488E+0
4.934388E+0
4.942778E+0
4.942942E+0
4.930275E+0
4.942778E+0
4.937349E+0
4.938830E+0
4.938994E+0
4.932578E+0
4.945903E+0
4.938830E+0
4.931920E+0
4.941297E+0
4.935046E+0
4.938336E+0
4.938501E+0
4.930440E+0
4.949193E+0
4.936362E+0
4.935211E+0
4.942120E+0
4.937020E+0
4.939159E+0
4.938007E+0
4.930440E+0
4.950345E+0
4.932578E+0
4.937349E+0
4.941297E+0
4.937678E+0
4.939652E+0
4.938336E+0
4.936527E+0
4.948700E+0
4.930604E+0
4.939981E+0
4.938665E+0
4.936362E+0
4.938830E+0
4.937349E+0
4.936033E+0
4.949029E+0
4.929288E+0
4.940475E+0
4.937678E+0
4.936691E+0
4.938830E+0
4.936527E+0
4.938665E+0
